 CALCULATION WITH NEFF7 (VAX VERSION).

 EFFICIENCY OF THE DETECTOR IN
 THE ENERGY RANGE    EMIN             0. KEV
                     EMAX         20000. KEV
 ENERGY BIN WIDTH                    50. KEV

 NE 213 SCINTILLATOR
           DENSITY                0.8790 G/CM**3
           NH/NC                  1.2800
 LIGHT PIPE
           DENSITY                1.1800 G/CM**3
           NH/NC                  1.1000

 RADIUS OF THE SCINTILLATORS        4.28 CM
 HEIGHT   OF THE SCINTILLATOR         4.92 CM
 RADIUS OF THE HOUSING              4.44 CM
 HEIGHT OF THE HOUSING              5.08 CM

 LENGTH OF THE LIGHT PIPE           0.00 CM

 DISTANCE OF THE SOURCE FROM
 THE SCINTILLATOR CENTER          500.00 CM

 DIRECTION OF NEUTRON INCIDENCE
 TO THE SCINTILLATOR AXIS            0.0 DEGREES

 RESOLUTION PARAMETER     AA       18.00 PERCENT
                          BB       16.00 PERCENT
                          CC        7.00 PERCENT

 LIGHT OUTPUT (E IN MEV):
 PROT.: L = TABLE  0 IN FILE NWQ4               E<  8.00 MEV
        L =-1.47440 + 0.71400*E
 DEUT.: L = 2 * LPROTON(E/2)
 ALPHA: L =           0.02359*E** 1.87100              E<  6.76 MEV
        L =-0.73387 + 0.23320*E + 0.00000*E**2
    BE: L = 0.01000*E
   B,C: L = 0.00970*E

   0.00 GAMMA DETECTION FROM (N,N+G) WITH PL > 2.00

 NUMBER OF NEUTRONS  NMAX =      9000000

 EFFICIENCY   ( BIAS VALUES IN L(ELECTRON)):

    ENERGY BIN        BIAS    BIAS    BIAS    BIAS    BIAS    BIAS    BIAS    BIAS    BIAS    BIAS
      IN KEV        1.4260  0.9490  0.7105  0.4720
     0. -   50.    0.00000 0.00000 0.00000 0.00000
    50. -  100.    0.00000 0.00000 0.00000 0.00000
   100. -  150.    0.00000 0.00000 0.00000 0.00000
   150. -  200.    0.00000 0.00000 0.00000 0.00000
   200. -  250.    0.00000 0.00000 0.00000 0.00000
   250. -  300.    0.00000 0.00000 0.00000 0.00000
   300. -  350.    0.00000 0.00000 0.00000 0.00000
   350. -  400.    0.00000 0.00000 0.00000 0.00000
   400. -  450.    0.00000 0.00000 0.00000 0.00000
   450. -  500.    0.00000 0.00000 0.00000 0.00000
   500. -  550.    0.00000 0.00000 0.00000 0.00000
   550. -  600.    0.00000 0.00000 0.00000 0.00000
   600. -  650.    0.00000 0.00000 0.00000 0.00000
   650. -  700.    0.00000 0.00000 0.00000 0.00000
   700. -  750.    0.00000 0.00000 0.00000 0.00000
   750. -  800.    0.00000 0.00000 0.00000 0.00000
   800. -  850.    0.00000 0.00000 0.00000 0.00000
   850. -  900.    0.00000 0.00000 0.00000 0.00000
   900. -  950.    0.00000 0.00000 0.00000 0.00000
   950. - 1000.    0.00000 0.00000 0.00000 0.00000
  1000. - 1050.    0.00000 0.00000 0.00000 0.00000
  1050. - 1100.    0.00000 0.00000 0.00000 0.00000
  1100. - 1150.    0.00000 0.00000 0.00000 0.00000
  1150. - 1200.    0.00000 0.00000 0.00000 0.00000
  1200. - 1250.    0.00000 0.00000 0.00000 0.00000
  1250. - 1300.    0.00000 0.00000 0.00000 0.00000
  1300. - 1350.    0.00000 0.00000 0.00000 0.00000
  1350. - 1400.    0.00000 0.00000 0.00000 0.00014
  1400. - 1450.    0.00000 0.00000 0.00000 0.00021
  1450. - 1500.    0.00000 0.00000 0.00000 0.00077
  1500. - 1550.    0.00000 0.00000 0.00000 0.00200
  1550. - 1600.    0.00000 0.00000 0.00000 0.00338
  1600. - 1650.    0.00000 0.00000 0.00000 0.00669
  1650. - 1700.    0.00000 0.00000 0.00000 0.01046
  1700. - 1750.    0.00000 0.00000 0.00000 0.01623
  1750. - 1800.    0.00000 0.00000 0.00000 0.02552
  1800. - 1850.    0.00000 0.00000 0.00007 0.03496
  1850. - 1900.    0.00000 0.00000 0.00036 0.04488
  1900. - 1950.    0.00000 0.00000 0.00032 0.05377
  1950. - 2000.    0.00000 0.00000 0.00082 0.06908
  2000. - 2050.    0.00000 0.00000 0.00089 0.07679
  2050. - 2100.    0.00000 0.00000 0.00252 0.08134
  2100. - 2150.    0.00000 0.00000 0.00421 0.10010
  2150. - 2200.    0.00000 0.00000 0.00689 0.11066
  2200. - 2250.    0.00000 0.00000 0.01122 0.12208
  2250. - 2300.    0.00000 0.00009 0.01471 0.12981
  2300. - 2350.    0.00000 0.00018 0.02006 0.14410
  2350. - 2400.    0.00000 0.00033 0.02706 0.15235
  2400. - 2450.    0.00000 0.00069 0.03409 0.15769
  2450. - 2500.    0.00000 0.00111 0.04111 0.16665
  2500. - 2550.    0.00000 0.00159 0.04782 0.17352
  2550. - 2600.    0.00000 0.00282 0.05377 0.17663
  2600. - 2650.    0.00000 0.00540 0.06577 0.18511
  2650. - 2700.    0.00000 0.00687 0.07029 0.18962
  2700. - 2750.    0.00000 0.00933 0.08094 0.19703
  2750. - 2800.    0.00000 0.01365 0.08928 0.20352
  2800. - 2850.    0.00000 0.01836 0.09429 0.20264
  2850. - 2900.    0.00000 0.02185 0.09579 0.20403
  2900. - 2950.    0.00000 0.02688 0.10519 0.20952
  2950. - 3000.    0.00000 0.03102 0.10977 0.21229
  3000. - 3050.    0.00003 0.03909 0.12302 0.22114
  3050. - 3100.    0.00006 0.04572 0.12979 0.22352
  3100. - 3150.    0.00014 0.05191 0.13386 0.22365
  3150. - 3200.    0.00015 0.05712 0.13892 0.22398
  3200. - 3250.    0.00039 0.06108 0.14296 0.22659
  3250. - 3300.    0.00061 0.06719 0.14710 0.22857
  3300. - 3350.    0.00097 0.07383 0.15405 0.23011
  3350. - 3400.    0.00137 0.07868 0.15544 0.23226
  3400. - 3450.    0.00156 0.08308 0.15803 0.23056
  3450. - 3500.    0.00356 0.08673 0.16121 0.23229
  3500. - 3550.    0.00408 0.09048 0.16441 0.23544
  3550. - 3600.    0.00609 0.09622 0.16882 0.23708
  3600. - 3650.    0.00879 0.10117 0.16916 0.23493
  3650. - 3700.    0.01072 0.10763 0.17400 0.23678
  3700. - 3750.    0.01196 0.10970 0.17729 0.23951
  3750. - 3800.    0.01727 0.11835 0.18197 0.24105
  3800. - 3850.    0.01964 0.11961 0.18139 0.23856
  3850. - 3900.    0.02425 0.12535 0.18332 0.23973
  3900. - 3950.    0.02615 0.12704 0.18623 0.23922
  3950. - 4000.    0.03091 0.13265 0.19021 0.24336
  4000. - 4050.    0.03484 0.13693 0.19305 0.24346
  4050. - 4100.    0.03823 0.13979 0.19276 0.24325
  4100. - 4150.    0.04295 0.14083 0.19302 0.24214
  4150. - 4200.    0.04652 0.14610 0.19756 0.24760
  4200. - 4250.    0.04972 0.14801 0.19842 0.24403
  4250. - 4300.    0.05289 0.14932 0.19682 0.24226
  4300. - 4350.    0.05720 0.15481 0.20249 0.24646
  4350. - 4400.    0.06142 0.15736 0.20244 0.24355
  4400. - 4450.    0.06622 0.15949 0.20150 0.24564
  4450. - 4500.    0.07079 0.16052 0.20274 0.24424
  4500. - 4550.    0.07347 0.16209 0.20493 0.24502
  4550. - 4600.    0.07929 0.16749 0.20828 0.24782
  4600. - 4650.    0.08234 0.16750 0.20668 0.24526
  4650. - 4700.    0.08304 0.16433 0.20426 0.24312
  4700. - 4750.    0.08838 0.16946 0.20532 0.24287
  4750. - 4800.    0.08801 0.16608 0.20399 0.23827
  4800. - 4850.    0.09261 0.17015 0.20680 0.24215
  4850. - 4900.    0.09639 0.17025 0.20604 0.23953
  4900. - 4950.    0.10082 0.17252 0.20658 0.24110
  4950. - 5000.    0.09867 0.16936 0.20221 0.23631
  5000. - 5050.    0.10519 0.17499 0.20784 0.24008
  5050. - 5100.    0.10563 0.17356 0.20659 0.23838
  5100. - 5150.    0.10917 0.17698 0.20900 0.23919
  5150. - 5200.    0.11141 0.17494 0.20493 0.23537
  5200. - 5250.    0.11395 0.17703 0.20690 0.23928
  5250. - 5300.    0.11429 0.17646 0.20584 0.23698
  5300. - 5350.    0.11746 0.17707 0.20624 0.23539
  5350. - 5400.    0.11893 0.17776 0.20766 0.23613
  5400. - 5450.    0.11762 0.17656 0.20324 0.23118
  5450. - 5500.    0.12072 0.17705 0.20398 0.23011
  5500. - 5550.    0.12046 0.17451 0.20129 0.22977
  5550. - 5600.    0.12619 0.17780 0.20401 0.23042
  5600. - 5650.    0.12719 0.18035 0.20515 0.23186
  5650. - 5700.    0.12518 0.17531 0.20045 0.22558
  5700. - 5750.    0.12855 0.17814 0.20412 0.23023
  5750. - 5800.    0.12977 0.17700 0.20156 0.22753
  5800. - 5850.    0.13028 0.17841 0.20162 0.22633
  5850. - 5900.    0.13075 0.17772 0.20135 0.22482
  5900. - 5950.    0.13414 0.17901 0.20203 0.22606
  5950. - 6000.    0.13314 0.17899 0.20217 0.22577
  6000. - 6050.    0.13326 0.17670 0.19855 0.22193
  6050. - 6100.    0.13428 0.17668 0.19806 0.22097
  6100. - 6150.    0.13501 0.17608 0.19855 0.22265
  6150. - 6200.    0.13398 0.17551 0.19638 0.21824
  6200. - 6250.    0.13601 0.17566 0.19642 0.21913
  6250. - 6300.    0.13485 0.17708 0.19831 0.22093
  6300. - 6350.    0.13672 0.17772 0.19827 0.22100
  6350. - 6400.    0.13416 0.17181 0.19300 0.21432
  6400. - 6450.    0.13832 0.17673 0.19671 0.21867
  6450. - 6500.    0.13928 0.17690 0.19697 0.21736
  6500. - 6550.    0.14065 0.17743 0.19671 0.21750
  6550. - 6600.    0.13720 0.17384 0.19277 0.21368
  6600. - 6650.    0.13849 0.17471 0.19369 0.21476
  6650. - 6700.    0.14165 0.17709 0.19588 0.21635
  6700. - 6750.    0.14166 0.17643 0.19462 0.21460
  6750. - 6800.    0.14218 0.17745 0.19610 0.21680
  6800. - 6850.    0.14428 0.17835 0.19564 0.21517
  6850. - 6900.    0.14324 0.17603 0.19473 0.21457
  6900. - 6950.    0.14238 0.17593 0.19306 0.21349
  6950. - 7000.    0.14282 0.17695 0.19439 0.21340
  7000. - 7050.    0.14329 0.17437 0.19164 0.21090
  7050. - 7100.    0.14395 0.17642 0.19349 0.21216
  7100. - 7150.    0.14378 0.17558 0.19161 0.21040
  7150. - 7200.    0.14467 0.17503 0.19155 0.21163
  7200. - 7250.    0.14177 0.17265 0.19013 0.21069
  7250. - 7300.    0.14351 0.17291 0.18979 0.20856
  7300. - 7350.    0.14152 0.17183 0.18822 0.20734
  7350. - 7400.    0.14409 0.17240 0.18846 0.20762
  7400. - 7450.    0.14219 0.17077 0.18663 0.20687
  7450. - 7500.    0.14082 0.17044 0.18646 0.20629
  7500. - 7550.    0.14053 0.16991 0.18615 0.20578
  7550. - 7600.    0.13861 0.16695 0.18251 0.20263
  7600. - 7650.    0.14070 0.16891 0.18562 0.20541
  7650. - 7700.    0.14035 0.16749 0.18478 0.20404
  7700. - 7750.    0.13710 0.16496 0.18002 0.19922
  7750. - 7800.    0.13879 0.16654 0.18276 0.20352
  7800. - 7850.    0.13963 0.16705 0.18332 0.20359
  7850. - 7900.    0.13976 0.16762 0.18252 0.20228
  7900. - 7950.    0.13764 0.16337 0.17884 0.19818
  7950. - 8000.    0.13775 0.16279 0.17844 0.19678
  8000. - 8050.    0.13999 0.16594 0.18118 0.20014
  8050. - 8100.    0.13524 0.16131 0.17819 0.19760
  8100. - 8150.    0.13846 0.16290 0.17907 0.19675
  8150. - 8200.    0.13919 0.16429 0.18007 0.19858
  8200. - 8250.    0.14149 0.16544 0.18007 0.19821
  8250. - 8300.    0.14079 0.16488 0.18064 0.19875
  8300. - 8350.    0.13867 0.16424 0.18006 0.19635
  8350. - 8400.    0.14155 0.16571 0.17988 0.19565
  8400. - 8450.    0.13977 0.16453 0.17950 0.19628
  8450. - 8500.    0.14182 0.16513 0.17942 0.19554
  8500. - 8550.    0.14217 0.16669 0.18083 0.19722
  8550. - 8600.    0.14173 0.16533 0.17927 0.19374
  8600. - 8650.    0.14092 0.16438 0.17835 0.19330
  8650. - 8700.    0.14214 0.16693 0.18069 0.19592
  8700. - 8750.    0.14138 0.16494 0.17887 0.19273
  8750. - 8800.    0.13908 0.16367 0.17713 0.19153
  8800. - 8850.    0.14001 0.16382 0.17674 0.19098
  8850. - 8900.    0.14043 0.16340 0.17677 0.19109
  8900. - 8950.    0.13813 0.16094 0.17431 0.18889
  8950. - 9000.    0.13796 0.16092 0.17420 0.18804
  9000. - 9050.    0.13798 0.16096 0.17372 0.18834
  9050. - 9100.    0.13660 0.15946 0.17214 0.18777
  9100. - 9150.    0.13638 0.15817 0.17097 0.18510
  9150. - 9200.    0.13593 0.15703 0.16926 0.18287
  9200. - 9250.    0.13626 0.15840 0.17015 0.18320
  9250. - 9300.    0.13596 0.15678 0.16961 0.18271
  9300. - 9350.    0.13856 0.15867 0.16993 0.18314
  9350. - 9400.    0.13730 0.15877 0.17179 0.18518
  9400. - 9450.    0.13489 0.15741 0.16943 0.18308
  9450. - 9500.    0.13706 0.15809 0.17102 0.18375
  9500. - 9550.    0.13540 0.15626 0.16748 0.18022
  9550. - 9600.    0.13561 0.15633 0.16847 0.18091
  9600. - 9650.    0.13732 0.15865 0.16991 0.18212
  9650. - 9700.    0.13652 0.15767 0.16917 0.18095
  9700. - 9750.    0.13608 0.15657 0.16710 0.17967
  9750. - 9800.    0.13538 0.15598 0.16693 0.17867
  9800. - 9850.    0.13653 0.15622 0.16745 0.17926
  9850. - 9900.    0.13696 0.15730 0.16794 0.17946
  9900. - 9950.    0.13693 0.15648 0.16752 0.17942
  9950. -10000.    0.13547 0.15512 0.16520 0.17748
 10000. -10050.    0.13674 0.15596 0.16641 0.17812
 10050. -10100.    0.13866 0.15832 0.16801 0.17924
 10100. -10150.    0.13735 0.15611 0.16636 0.17762
 10150. -10200.    0.13702 0.15475 0.16494 0.17524
 10200. -10250.    0.13528 0.15389 0.16430 0.17483
 10250. -10300.    0.13580 0.15416 0.16345 0.17390
 10300. -10350.    0.13477 0.15226 0.16236 0.17372
 10350. -10400.    0.13572 0.15356 0.16306 0.17432
 10400. -10450.    0.13708 0.15417 0.16372 0.17546
 10450. -10500.    0.13506 0.15356 0.16462 0.17477
 10500. -10550.    0.13659 0.15436 0.16401 0.17476
 10550. -10600.    0.13301 0.15109 0.16124 0.17271
 10600. -10650.    0.13820 0.15543 0.16429 0.17448
 10650. -10700.    0.13490 0.15204 0.16131 0.17162
 10700. -10750.    0.13307 0.15117 0.16074 0.17291
 10750. -10800.    0.13303 0.15036 0.15959 0.17069
 10800. -10850.    0.13325 0.14976 0.15874 0.17068
 10850. -10900.    0.13406 0.15058 0.15920 0.17114
 10900. -10950.    0.13293 0.14858 0.15703 0.16856
 10950. -11000.    0.13275 0.14868 0.15754 0.16965
 11000. -11050.    0.13256 0.14983 0.15887 0.17107
 11050. -11100.    0.13400 0.14994 0.15897 0.16999
 11100. -11150.    0.13318 0.14958 0.15893 0.17140
 11150. -11200.    0.13118 0.14752 0.15606 0.16776
 11200. -11250.    0.13157 0.14656 0.15445 0.16572
 11250. -11300.    0.13003 0.14514 0.15335 0.16495
 11300. -11350.    0.13255 0.14750 0.15508 0.16714
 11350. -11400.    0.13017 0.14487 0.15343 0.16537
 11400. -11450.    0.13057 0.14583 0.15423 0.16560
 11450. -11500.    0.12969 0.14424 0.15234 0.16424
 11500. -11550.    0.12995 0.14587 0.15427 0.16498
 11550. -11600.    0.12841 0.14262 0.15048 0.16224
 11600. -11650.    0.12653 0.14043 0.14807 0.16009
 11650. -11700.    0.13041 0.14426 0.15258 0.16403
 11700. -11750.    0.13061 0.14411 0.15163 0.16270
 11750. -11800.    0.12978 0.14368 0.15155 0.16249
 11800. -11850.    0.12794 0.14135 0.14918 0.16160
 11850. -11900.    0.12631 0.14015 0.14794 0.15994
 11900. -11950.    0.12778 0.14175 0.14961 0.16144
 11950. -12000.    0.12811 0.14116 0.14957 0.16174
 12000. -12050.    0.12823 0.14180 0.14985 0.16156
 12050. -12100.    0.12980 0.14282 0.15052 0.16324
 12100. -12150.    0.12852 0.14138 0.14921 0.16188
 12150. -12200.    0.12767 0.13997 0.14851 0.16097
 12200. -12250.    0.12828 0.14083 0.14908 0.16170
 12250. -12300.    0.12582 0.13928 0.14668 0.15963
 12300. -12350.    0.12911 0.14202 0.14946 0.16282
 12350. -12400.    0.12531 0.13733 0.14561 0.15861
 12400. -12450.    0.12603 0.13787 0.14639 0.15977
 12450. -12500.    0.12532 0.13765 0.14633 0.15957
 12500. -12550.    0.12520 0.13783 0.14705 0.15979
 12550. -12600.    0.12587 0.13792 0.14607 0.15901
 12600. -12650.    0.12350 0.13597 0.14482 0.15831
 12650. -12700.    0.12749 0.13973 0.14861 0.16298
 12700. -12750.    0.12505 0.13743 0.14631 0.16053
 12750. -12800.    0.12463 0.13726 0.14567 0.15986
 12800. -12850.    0.12522 0.13693 0.14560 0.16100
 12850. -12900.    0.12270 0.13493 0.14376 0.15768
 12900. -12950.    0.12535 0.13761 0.14732 0.16167
 12950. -13000.    0.12292 0.13495 0.14404 0.15860
 13000. -13050.    0.12250 0.13416 0.14331 0.15849
 13050. -13100.    0.12383 0.13527 0.14485 0.15865
 13100. -13150.    0.12415 0.13623 0.14516 0.15944
 13150. -13200.    0.12385 0.13545 0.14491 0.15851
 13200. -13250.    0.12247 0.13414 0.14316 0.15720
 13250. -13300.    0.12311 0.13477 0.14366 0.15800
 13300. -13350.    0.11987 0.13206 0.14167 0.15529
 13350. -13400.    0.12409 0.13645 0.14557 0.16080
 13400. -13450.    0.12192 0.13419 0.14327 0.15739
 13450. -13500.    0.12189 0.13419 0.14402 0.15857
 13500. -13550.    0.11846 0.13043 0.13942 0.15438
 13550. -13600.    0.11988 0.13263 0.14174 0.15648
 13600. -13650.    0.11973 0.13167 0.14120 0.15601
 13650. -13700.    0.12138 0.13293 0.14254 0.15648
 13700. -13750.    0.11780 0.13003 0.13987 0.15510
 13750. -13800.    0.11817 0.12937 0.13881 0.15291
 13800. -13850.    0.11758 0.12913 0.13884 0.15408
 13850. -13900.    0.11903 0.13091 0.14141 0.15733
 13900. -13950.    0.11772 0.12997 0.13944 0.15445
 13950. -14000.    0.11690 0.12935 0.13895 0.15502
 14000. -14050.    0.11811 0.13046 0.14003 0.15722
 14050. -14100.    0.11764 0.13008 0.13993 0.15676
 14100. -14150.    0.11840 0.13203 0.14168 0.15782
 14150. -14200.    0.11769 0.13113 0.14108 0.15824
 14200. -14250.    0.11609 0.12923 0.13883 0.15543
 14250. -14300.    0.11716 0.13097 0.14111 0.15726
 14300. -14350.    0.11713 0.13212 0.14262 0.15807
 14350. -14400.    0.11556 0.13015 0.14030 0.15656
 14400. -14450.    0.11512 0.13089 0.14160 0.15835
 14450. -14500.    0.11287 0.12816 0.13875 0.15566
 14500. -14550.    0.11528 0.13215 0.14294 0.15865
 14550. -14600.    0.11442 0.13042 0.14205 0.15958
 14600. -14650.    0.11294 0.12849 0.13868 0.15520
 14650. -14700.    0.11572 0.13212 0.14210 0.15908
 14700. -14750.    0.11529 0.13044 0.14118 0.15760
 14750. -14800.    0.11362 0.12955 0.14029 0.15776
 14800. -14850.    0.11409 0.12953 0.14003 0.15730
 14850. -14900.    0.11356 0.12961 0.14047 0.15897
 14900. -14950.    0.11219 0.12857 0.14031 0.15847
 14950. -15000.    0.11164 0.12736 0.13843 0.15615
 15000. -15050.    0.11200 0.12839 0.14002 0.15900
 15050. -15100.    0.11334 0.12894 0.14064 0.16087
 15100. -15150.    0.11268 0.12818 0.14024 0.15949
 15150. -15200.    0.11227 0.12772 0.14039 0.16133
 15200. -15250.    0.11133 0.12664 0.13907 0.16007
 15250. -15300.    0.11321 0.12887 0.14082 0.16150
 15300. -15350.    0.11089 0.12632 0.13904 0.15942
 15350. -15400.    0.11188 0.12699 0.13924 0.16058
 15400. -15450.    0.11122 0.12594 0.13843 0.15922
 15450. -15500.    0.11193 0.12708 0.13958 0.16094
 15500. -15550.    0.11013 0.12468 0.13823 0.15990
 15550. -15600.    0.11091 0.12766 0.14080 0.16292
 15600. -15650.    0.11102 0.12698 0.13983 0.16215
 15650. -15700.    0.10911 0.12406 0.13786 0.16008
 15700. -15750.    0.10702 0.12218 0.13512 0.15804
 15750. -15800.    0.11161 0.12635 0.13933 0.16128
 15800. -15850.    0.10939 0.12506 0.13820 0.16188
 15850. -15900.    0.11054 0.12646 0.14023 0.16363
 15900. -15950.    0.10860 0.12523 0.13869 0.16182
 15950. -16000.    0.10821 0.12351 0.13796 0.16157
 16000. -16050.    0.10823 0.12364 0.13775 0.16150
 16050. -16100.    0.10839 0.12414 0.13897 0.16278
 16100. -16150.    0.10941 0.12563 0.14118 0.16420
 16150. -16200.    0.10929 0.12584 0.14063 0.16353
 16200. -16250.    0.10655 0.12229 0.13793 0.16287
 16250. -16300.    0.10849 0.12517 0.13954 0.16254
 16300. -16350.    0.10570 0.12228 0.13729 0.16111
 16350. -16400.    0.10942 0.12544 0.14039 0.16294
 16400. -16450.    0.10848 0.12579 0.14044 0.16390
 16450. -16500.    0.10687 0.12314 0.13801 0.16017
 16500. -16550.    0.10697 0.12283 0.13698 0.16015
 16550. -16600.    0.10718 0.12447 0.13906 0.16086
 16600. -16650.    0.10694 0.12357 0.13836 0.16039
 16650. -16700.    0.10775 0.12350 0.13853 0.16048
 16700. -16750.    0.10673 0.12276 0.13815 0.16056
 16750. -16800.    0.10881 0.12508 0.13961 0.16104
 16800. -16850.    0.10877 0.12509 0.14075 0.16260
 16850. -16900.    0.10818 0.12450 0.14001 0.16208
 16900. -16950.    0.10472 0.12082 0.13652 0.15857
 16950. -17000.    0.10886 0.12524 0.14158 0.16284
 17000. -17050.    0.10676 0.12396 0.14072 0.16213
 17050. -17100.    0.10626 0.12324 0.14053 0.16320
 17100. -17150.    0.10651 0.12419 0.14110 0.16167
 17150. -17200.    0.10843 0.12599 0.14316 0.16504
 17200. -17250.    0.10482 0.12287 0.14145 0.16332
 17250. -17300.    0.10563 0.12336 0.14122 0.16373
 17300. -17350.    0.10393 0.12184 0.14072 0.16163
 17350. -17400.    0.10750 0.12572 0.14419 0.16429
 17400. -17450.    0.10566 0.12429 0.14424 0.16582
 17450. -17500.    0.10462 0.12319 0.14314 0.16245
 17500. -17550.    0.10586 0.12412 0.14342 0.16356
 17550. -17600.    0.10473 0.12450 0.14656 0.16646
 17600. -17650.    0.10605 0.12669 0.14748 0.16842
 17650. -17700.    0.10429 0.12477 0.14668 0.16669
 17700. -17750.    0.10520 0.12602 0.14731 0.16776
 17750. -17800.    0.10390 0.12597 0.14672 0.16733
 17800. -17850.    0.10566 0.12734 0.14797 0.16811
 17850. -17900.    0.10573 0.12867 0.15071 0.17085
 17900. -17950.    0.10470 0.12923 0.15047 0.16941
 17950. -18000.    0.10371 0.12692 0.14900 0.16957
 18000. -18050.    0.10342 0.12768 0.14844 0.16832
 18050. -18100.    0.10528 0.12956 0.15030 0.17001
 18100. -18150.    0.10642 0.13184 0.15189 0.17087
 18150. -18200.    0.10565 0.13021 0.14985 0.16950
 18200. -18250.    0.10318 0.12855 0.14914 0.16920
 18250. -18300.    0.10561 0.12922 0.14784 0.16736
 18300. -18350.    0.10323 0.12772 0.14767 0.16766
 18350. -18400.    0.10411 0.12870 0.14867 0.16788
 18400. -18450.    0.10644 0.13044 0.14793 0.16746
 18450. -18500.    0.10491 0.12875 0.14671 0.16665
 18500. -18550.    0.10565 0.12994 0.14851 0.16682
 18550. -18600.    0.10532 0.12954 0.14689 0.16602
 18600. -18650.    0.10615 0.12978 0.14841 0.16698
 18650. -18700.    0.10841 0.13120 0.14859 0.16618
 18700. -18750.    0.10641 0.13033 0.14710 0.16528
 18750. -18800.    0.10563 0.12908 0.14594 0.16532
 18800. -18850.    0.10839 0.13196 0.14904 0.16760
 18850. -18900.    0.10719 0.12951 0.14574 0.16407
 18900. -18950.    0.10681 0.12931 0.14585 0.16446
 18950. -19000.    0.10623 0.12975 0.14711 0.16514
 19000. -19050.    0.10719 0.12914 0.14543 0.16180
 19050. -19100.    0.10864 0.13161 0.14844 0.16585
 19100. -19150.    0.10510 0.12719 0.14419 0.16219
 19150. -19200.    0.10706 0.12902 0.14573 0.16423
 19200. -19250.    0.10776 0.13000 0.14565 0.16325
 19250. -19300.    0.10625 0.12822 0.14389 0.16167
 19300. -19350.    0.10775 0.12965 0.14517 0.16365
 19350. -19400.    0.10562 0.12722 0.14362 0.16246
 19400. -19450.    0.10849 0.13052 0.14702 0.16533
 19450. -19500.    0.10727 0.12899 0.14527 0.16436
 19500. -19550.    0.10903 0.13082 0.14727 0.16592
 19550. -19600.    0.10862 0.13027 0.14723 0.16665
 19600. -19650.    0.10794 0.13036 0.14659 0.16533
 19650. -19700.    0.10695 0.12866 0.14529 0.16311
 19700. -19750.    0.10707 0.12765 0.14304 0.16130
 19750. -19800.    0.10758 0.12882 0.14439 0.16275
 19800. -19850.    0.10794 0.12798 0.14347 0.16156
 19850. -19900.    0.10618 0.12567 0.14071 0.15717
 19900. -19950.    0.10680 0.12715 0.14196 0.15789
 19950. -20000.    0.10709 0.12644 0.14093 0.15687

 STATISTICAL UNCERTAINTY:

     0. -   50.    0.00000 0.00000 0.00000 0.00000
    50. -  100.    0.00000 0.00000 0.00000 0.00000
   100. -  150.    0.00000 0.00000 0.00000 0.00000
   150. -  200.    0.00000 0.00000 0.00000 0.00000
   200. -  250.    0.00000 0.00000 0.00000 0.00000
   250. -  300.    0.00000 0.00000 0.00000 0.00000
   300. -  350.    0.00000 0.00000 0.00000 0.00000
   350. -  400.    0.00000 0.00000 0.00000 0.00000
   400. -  450.    0.00000 0.00000 0.00000 0.00000
   450. -  500.    0.00000 0.00000 0.00000 0.00000
   500. -  550.    0.00000 0.00000 0.00000 0.00000
   550. -  600.    0.00000 0.00000 0.00000 0.00000
   600. -  650.    0.00000 0.00000 0.00000 0.00000
   650. -  700.    0.00000 0.00000 0.00000 0.00000
   700. -  750.    0.00000 0.00000 0.00000 0.00000
   750. -  800.    0.00000 0.00000 0.00000 0.00000
   800. -  850.    0.00000 0.00000 0.00000 0.00000
   850. -  900.    0.00000 0.00000 0.00000 0.00000
   900. -  950.    0.00000 0.00000 0.00000 0.00000
   950. - 1000.    0.00000 0.00000 0.00000 0.00000
  1000. - 1050.    0.00000 0.00000 0.00000 0.00000
  1050. - 1100.    0.00000 0.00000 0.00000 0.00000
  1100. - 1150.    0.00000 0.00000 0.00000 0.00000
  1150. - 1200.    0.00000 0.00000 0.00000 0.00000
  1200. - 1250.    0.00000 0.00000 0.00000 0.00000
  1250. - 1300.    0.00000 0.00000 0.00000 0.00000
  1300. - 1350.    0.00000 0.00000 0.00000 0.00000
  1350. - 1400.    0.00000 0.00000 0.00000 0.00010
  1400. - 1450.    0.00000 0.00000 0.00000 0.00000
  1450. - 1500.    0.00000 0.00000 0.00000 0.00005
  1500. - 1550.    0.00000 0.00000 0.00000 0.00015
  1550. - 1600.    0.00000 0.00000 0.00000 0.00021
  1600. - 1650.    0.00000 0.00000 0.00000 0.00015
  1650. - 1700.    0.00000 0.00000 0.00000 0.00072
  1700. - 1750.    0.00000 0.00000 0.00000 0.00013
  1750. - 1800.    0.00000 0.00000 0.00000 0.00057
  1800. - 1850.    0.00000 0.00000 0.00005 0.00138
  1850. - 1900.    0.00000 0.00000 0.00002 0.00061
  1900. - 1950.    0.00000 0.00000 0.00000 0.00139
  1950. - 2000.    0.00000 0.00000 0.00018 0.00091
  2000. - 2050.    0.00000 0.00000 0.00004 0.00036
  2050. - 2100.    0.00000 0.00000 0.00009 0.00094
  2100. - 2150.    0.00000 0.00000 0.00050 0.00078
  2150. - 2200.    0.00000 0.00000 0.00038 0.00020
  2200. - 2250.    0.00000 0.00000 0.00052 0.00398
  2250. - 2300.    0.00000 0.00006 0.00034 0.00283
  2300. - 2350.    0.00000 0.00000 0.00043 0.00112
  2350. - 2400.    0.00000 0.00015 0.00037 0.00100
  2400. - 2450.    0.00000 0.00002 0.00070 0.00001
  2450. - 2500.    0.00000 0.00006 0.00062 0.00025
  2500. - 2550.    0.00000 0.00036 0.00110 0.00030
  2550. - 2600.    0.00000 0.00008 0.00185 0.00063
  2600. - 2650.    0.00000 0.00027 0.00285 0.00330
  2650. - 2700.    0.00000 0.00038 0.00029 0.00176
  2700. - 2750.    0.00000 0.00070 0.00064 0.00164
  2750. - 2800.    0.00000 0.00034 0.00101 0.00018
  2800. - 2850.    0.00000 0.00003 0.00038 0.00029
  2850. - 2900.    0.00000 0.00007 0.00114 0.00017
  2900. - 2950.    0.00000 0.00205 0.00314 0.00186
  2950. - 3000.    0.00000 0.00016 0.00144 0.00005
  3000. - 3050.    0.00002 0.00018 0.00012 0.00015
  3050. - 3100.    0.00000 0.00023 0.00113 0.00021
  3100. - 3150.    0.00006 0.00026 0.00018 0.00027
  3150. - 3200.    0.00002 0.00149 0.00191 0.00084
  3200. - 3250.    0.00011 0.00143 0.00165 0.00061
  3250. - 3300.    0.00000 0.00004 0.00180 0.00218
  3300. - 3350.    0.00005 0.00089 0.00130 0.00127
  3350. - 3400.    0.00004 0.00010 0.00077 0.00247
  3400. - 3450.    0.00022 0.00111 0.00082 0.00131
  3450. - 3500.    0.00004 0.00087 0.00045 0.00095
  3500. - 3550.    0.00035 0.00049 0.00112 0.00006
  3550. - 3600.    0.00050 0.00138 0.00153 0.00043
  3600. - 3650.    0.00018 0.00177 0.00060 0.00071
  3650. - 3700.    0.00003 0.00123 0.00051 0.00183
  3700. - 3750.    0.00032 0.00038 0.00021 0.00017
  3750. - 3800.    0.00117 0.00134 0.00260 0.00239
  3800. - 3850.    0.00064 0.00131 0.00207 0.00283
  3850. - 3900.    0.00073 0.00144 0.00186 0.00238
  3900. - 3950.    0.00058 0.00092 0.00187 0.00216
  3950. - 4000.    0.00070 0.00025 0.00176 0.00009
  4000. - 4050.    0.00065 0.00144 0.00100 0.00083
  4050. - 4100.    0.00015 0.00206 0.00163 0.00087
  4100. - 4150.    0.00035 0.00159 0.00070 0.00170
  4150. - 4200.    0.00010 0.00078 0.00005 0.00032
  4200. - 4250.    0.00066 0.00014 0.00137 0.00133
  4250. - 4300.    0.00067 0.00031 0.00024 0.00068
  4300. - 4350.    0.00102 0.00203 0.00192 0.00229
  4350. - 4400.    0.00075 0.00156 0.00047 0.00057
  4400. - 4450.    0.00119 0.00296 0.00228 0.00132
  4450. - 4500.    0.00061 0.00201 0.00320 0.00283
  4500. - 4550.    0.00078 0.00020 0.00106 0.00048
  4550. - 4600.    0.00037 0.00138 0.00183 0.00197
  4600. - 4650.    0.00159 0.00108 0.00069 0.00115
  4650. - 4700.    0.00137 0.00060 0.00063 0.00040
  4700. - 4750.    0.00116 0.00016 0.00042 0.00045
  4750. - 4800.    0.00069 0.00150 0.00199 0.00152
  4800. - 4850.    0.00021 0.00015 0.00001 0.00122
  4850. - 4900.    0.00033 0.00021 0.00073 0.00191
  4900. - 4950.    0.00098 0.00140 0.00086 0.00205
  4950. - 5000.    0.00075 0.00115 0.00129 0.00077
  5000. - 5050.    0.00053 0.00152 0.00178 0.00162
  5050. - 5100.    0.00030 0.00054 0.00031 0.00037
  5100. - 5150.    0.00082 0.00084 0.00079 0.00112
  5150. - 5200.    0.00077 0.00063 0.00086 0.00138
  5200. - 5250.    0.00026 0.00048 0.00034 0.00039
  5250. - 5300.    0.00035 0.00070 0.00090 0.00038
  5300. - 5350.    0.00040 0.00060 0.00078 0.00037
  5350. - 5400.    0.00185 0.00323 0.00282 0.00285
  5400. - 5450.    0.00241 0.00142 0.00198 0.00157
  5450. - 5500.    0.00295 0.00193 0.00186 0.00237
  5500. - 5550.    0.00001 0.00136 0.00083 0.00119
  5550. - 5600.    0.00290 0.00261 0.00331 0.00333
  5600. - 5650.    0.00197 0.00298 0.00230 0.00212
  5650. - 5700.    0.00172 0.00051 0.00060 0.00071
  5700. - 5750.    0.00003 0.00067 0.00031 0.00055
  5750. - 5800.    0.00130 0.00167 0.00122 0.00125
  5800. - 5850.    0.00040 0.00083 0.00037 0.00011
  5850. - 5900.    0.00099 0.00022 0.00018 0.00050
  5900. - 5950.    0.00028 0.00099 0.00044 0.00018
  5950. - 6000.    0.00050 0.00032 0.00065 0.00049
  6000. - 6050.    0.00249 0.00246 0.00163 0.00234
  6050. - 6100.    0.00012 0.00007 0.00004 0.00127
  6100. - 6150.    0.00175 0.00147 0.00148 0.00108
  6150. - 6200.    0.00105 0.00021 0.00012 0.00043
  6200. - 6250.    0.00147 0.00172 0.00170 0.00081
  6250. - 6300.    0.00036 0.00062 0.00024 0.00087
  6300. - 6350.    0.00084 0.00082 0.00037 0.00039
  6350. - 6400.    0.00069 0.00194 0.00143 0.00180
  6400. - 6450.    0.00132 0.00100 0.00124 0.00118
  6450. - 6500.    0.00214 0.00225 0.00284 0.00285
  6500. - 6550.    0.00031 0.00052 0.00068 0.00087
  6550. - 6600.    0.00051 0.00099 0.00106 0.00108
  6600. - 6650.    0.00001 0.00039 0.00010 0.00001
  6650. - 6700.    0.00032 0.00020 0.00031 0.00135
  6700. - 6750.    0.00080 0.00030 0.00006 0.00033
  6750. - 6800.    0.00010 0.00068 0.00098 0.00035
  6800. - 6850.    0.00098 0.00117 0.00116 0.00057
  6850. - 6900.    0.00018 0.00015 0.00026 0.00009
  6900. - 6950.    0.00214 0.00064 0.00087 0.00108
  6950. - 7000.    0.00047 0.00081 0.00106 0.00113
  7000. - 7050.    0.00121 0.00097 0.00114 0.00150
  7050. - 7100.    0.00085 0.00141 0.00140 0.00167
  7100. - 7150.    0.00041 0.00068 0.00042 0.00047
  7150. - 7200.    0.00129 0.00095 0.00169 0.00130
  7200. - 7250.    0.00000 0.00041 0.00051 0.00024
  7250. - 7300.    0.00005 0.00005 0.00020 0.00048
  7300. - 7350.    0.00098 0.00101 0.00144 0.00128
  7350. - 7400.    0.00076 0.00044 0.00026 0.00027
  7400. - 7450.    0.00069 0.00159 0.00190 0.00188
  7450. - 7500.    0.00102 0.00137 0.00136 0.00139
  7500. - 7550.    0.00104 0.00116 0.00079 0.00066
  7550. - 7600.    0.00011 0.00036 0.00039 0.00017
  7600. - 7650.    0.00082 0.00017 0.00057 0.00088
  7650. - 7700.    0.00136 0.00083 0.00003 0.00020
  7700. - 7750.    0.00145 0.00014 0.00035 0.00078
  7750. - 7800.    0.00089 0.00093 0.00069 0.00067
  7800. - 7850.    0.00034 0.00053 0.00056 0.00011
  7850. - 7900.    0.00165 0.00173 0.00166 0.00100
  7900. - 7950.    0.00086 0.00072 0.00002 0.00004
  7950. - 8000.    0.00169 0.00232 0.00168 0.00206
  8000. - 8050.    0.00299 0.00286 0.00268 0.00278
  8050. - 8100.    0.00148 0.00033 0.00045 0.00076
  8100. - 8150.    0.00161 0.00138 0.00124 0.00117
  8150. - 8200.    0.00099 0.00062 0.00004 0.00058
  8200. - 8250.    0.00050 0.00136 0.00117 0.00041
  8250. - 8300.    0.00053 0.00058 0.00057 0.00077
  8300. - 8350.    0.00046 0.00054 0.00056 0.00084
  8350. - 8400.    0.00130 0.00096 0.00088 0.00078
  8400. - 8450.    0.00019 0.00008 0.00001 0.00046
  8450. - 8500.    0.00078 0.00080 0.00019 0.00036
  8500. - 8550.    0.00010 0.00060 0.00088 0.00054
  8550. - 8600.    0.00156 0.00089 0.00117 0.00079
  8600. - 8650.    0.00008 0.00018 0.00029 0.00053
  8650. - 8700.    0.00026 0.00019 0.00002 0.00022
  8700. - 8750.    0.00018 0.00017 0.00007 0.00059
  8750. - 8800.    0.00031 0.00064 0.00028 0.00036
  8800. - 8850.    0.00039 0.00048 0.00082 0.00093
  8850. - 8900.    0.00131 0.00111 0.00194 0.00197
  8900. - 8950.    0.00058 0.00051 0.00059 0.00012
  8950. - 9000.    0.00023 0.00011 0.00019 0.00044
  9000. - 9050.    0.00070 0.00066 0.00087 0.00065
  9050. - 9100.    0.00100 0.00158 0.00160 0.00181
  9100. - 9150.    0.00008 0.00036 0.00061 0.00048
  9150. - 9200.    0.00041 0.00036 0.00017 0.00031
  9200. - 9250.    0.00055 0.00029 0.00017 0.00030
  9250. - 9300.    0.00102 0.00071 0.00061 0.00105
  9300. - 9350.    0.00079 0.00102 0.00106 0.00080
  9350. - 9400.    0.00007 0.00036 0.00090 0.00148
  9400. - 9450.    0.00055 0.00003 0.00008 0.00016
  9450. - 9500.    0.00017 0.00034 0.00027 0.00020
  9500. - 9550.    0.00054 0.00046 0.00037 0.00042
  9550. - 9600.    0.00085 0.00113 0.00109 0.00157
  9600. - 9650.    0.00024 0.00008 0.00009 0.00002
  9650. - 9700.    0.00041 0.00009 0.00052 0.00018
  9700. - 9750.    0.00190 0.00154 0.00146 0.00173
  9750. - 9800.    0.00104 0.00105 0.00099 0.00053
  9800. - 9850.    0.00064 0.00021 0.00024 0.00052
  9850. - 9900.    0.00065 0.00120 0.00097 0.00085
  9900. - 9950.    0.00050 0.00069 0.00097 0.00119
  9950. -10000.    0.00170 0.00151 0.00112 0.00159
 10000. -10050.    0.00098 0.00101 0.00101 0.00068
 10050. -10100.    0.00046 0.00013 0.00039 0.00014
 10100. -10150.    0.00010 0.00028 0.00049 0.00042
 10150. -10200.    0.00045 0.00038 0.00045 0.00076
 10200. -10250.    0.00107 0.00001 0.00006 0.00061
 10250. -10300.    0.00045 0.00055 0.00093 0.00133
 10300. -10350.    0.00028 0.00031 0.00021 0.00008
 10350. -10400.    0.00142 0.00115 0.00114 0.00143
 10400. -10450.    0.00036 0.00037 0.00045 0.00097
 10450. -10500.    0.00074 0.00073 0.00071 0.00093
 10500. -10550.    0.00058 0.00001 0.00013 0.00026
 10550. -10600.    0.00022 0.00092 0.00034 0.00053
 10600. -10650.    0.00047 0.00031 0.00012 0.00005
 10650. -10700.    0.00191 0.00141 0.00131 0.00134
 10700. -10750.    0.00110 0.00097 0.00098 0.00135
 10750. -10800.    0.00190 0.00237 0.00224 0.00200
 10800. -10850.    0.00089 0.00109 0.00141 0.00119
 10850. -10900.    0.00006 0.00018 0.00044 0.00017
 10900. -10950.    0.00060 0.00020 0.00047 0.00044
 10950. -11000.    0.00016 0.00020 0.00007 0.00005
 11000. -11050.    0.00116 0.00126 0.00101 0.00089
 11050. -11100.    0.00028 0.00040 0.00028 0.00028
 11100. -11150.    0.00055 0.00036 0.00013 0.00055
 11150. -11200.    0.00202 0.00195 0.00200 0.00158
 11200. -11250.    0.00022 0.00011 0.00014 0.00045
 11250. -11300.    0.00020 0.00014 0.00035 0.00029
 11300. -11350.    0.00089 0.00086 0.00074 0.00092
 11350. -11400.    0.00022 0.00015 0.00064 0.00055
 11400. -11450.    0.00003 0.00037 0.00010 0.00020
 11450. -11500.    0.00034 0.00074 0.00045 0.00052
 11500. -11550.    0.00178 0.00088 0.00007 0.00031
 11550. -11600.    0.00016 0.00043 0.00023 0.00019
 11600. -11650.    0.00001 0.00004 0.00013 0.00040
 11650. -11700.    0.00006 0.00007 0.00000 0.00022
 11700. -11750.    0.00016 0.00012 0.00005 0.00004
 11750. -11800.    0.00118 0.00097 0.00075 0.00093
 11800. -11850.    0.00026 0.00042 0.00040 0.00057
 11850. -11900.    0.00036 0.00049 0.00029 0.00051
 11900. -11950.    0.00101 0.00100 0.00140 0.00127
 11950. -12000.    0.00062 0.00016 0.00073 0.00072
 12000. -12050.    0.00034 0.00088 0.00090 0.00099
 12050. -12100.    0.00047 0.00135 0.00138 0.00123
 12100. -12150.    0.00098 0.00053 0.00081 0.00078
 12150. -12200.    0.00083 0.00166 0.00185 0.00218
 12200. -12250.    0.00008 0.00012 0.00044 0.00010
 12250. -12300.    0.00006 0.00029 0.00005 0.00053
 12300. -12350.    0.00081 0.00083 0.00100 0.00120
 12350. -12400.    0.00053 0.00057 0.00041 0.00049
 12400. -12450.    0.00082 0.00074 0.00047 0.00023
 12450. -12500.    0.00164 0.00178 0.00170 0.00224
 12500. -12550.    0.00181 0.00186 0.00180 0.00198
 12550. -12600.    0.00017 0.00021 0.00037 0.00035
 12600. -12650.    0.00240 0.00196 0.00173 0.00109
 12650. -12700.    0.00138 0.00121 0.00109 0.00101
 12700. -12750.    0.00077 0.00115 0.00139 0.00147
 12750. -12800.    0.00035 0.00028 0.00050 0.00017
 12800. -12850.    0.00082 0.00027 0.00014 0.00024
 12850. -12900.    0.00026 0.00048 0.00059 0.00133
 12900. -12950.    0.00028 0.00047 0.00075 0.00107
 12950. -13000.    0.00054 0.00033 0.00035 0.00019
 13000. -13050.    0.00066 0.00058 0.00036 0.00013
 13050. -13100.    0.00035 0.00048 0.00023 0.00022
 13100. -13150.    0.00021 0.00030 0.00079 0.00074
 13150. -13200.    0.00022 0.00072 0.00098 0.00130
 13200. -13250.    0.00111 0.00111 0.00103 0.00135
 13250. -13300.    0.00004 0.00015 0.00025 0.00017
 13300. -13350.    0.00004 0.00077 0.00021 0.00018
 13350. -13400.    0.00181 0.00181 0.00156 0.00218
 13400. -13450.    0.00041 0.00020 0.00017 0.00050
 13450. -13500.    0.00068 0.00003 0.00002 0.00028
 13500. -13550.    0.00054 0.00033 0.00048 0.00044
 13550. -13600.    0.00117 0.00065 0.00051 0.00085
 13600. -13650.    0.00086 0.00038 0.00053 0.00101
 13650. -13700.    0.00047 0.00012 0.00010 0.00003
 13700. -13750.    0.00048 0.00049 0.00084 0.00161
 13750. -13800.    0.00180 0.00172 0.00155 0.00088
 13800. -13850.    0.00207 0.00243 0.00271 0.00249
 13850. -13900.    0.00069 0.00018 0.00029 0.00015
 13900. -13950.    0.00069 0.00110 0.00113 0.00133
 13950. -14000.    0.00045 0.00010 0.00014 0.00002
 14000. -14050.    0.00137 0.00095 0.00075 0.00099
 14050. -14100.    0.00044 0.00057 0.00026 0.00008
 14100. -14150.    0.00010 0.00003 0.00010 0.00025
 14150. -14200.    0.00120 0.00105 0.00088 0.00057
 14200. -14250.    0.00027 0.00002 0.00051 0.00015
 14250. -14300.    0.00098 0.00021 0.00018 0.00068
 14300. -14350.    0.00002 0.00035 0.00028 0.00033
 14350. -14400.    0.00026 0.00033 0.00092 0.00096
 14400. -14450.    0.00033 0.00065 0.00046 0.00054
 14450. -14500.    0.00001 0.00056 0.00073 0.00058
 14500. -14550.    0.00067 0.00072 0.00061 0.00045
 14550. -14600.    0.00026 0.00034 0.00001 0.00046
 14600. -14650.    0.00110 0.00072 0.00094 0.00157
 14650. -14700.    0.00038 0.00004 0.00026 0.00014
 14700. -14750.    0.00116 0.00139 0.00168 0.00161
 14750. -14800.    0.00061 0.00060 0.00115 0.00108
 14800. -14850.    0.00055 0.00055 0.00024 0.00013
 14850. -14900.    0.00013 0.00031 0.00003 0.00020
 14900. -14950.    0.00017 0.00017 0.00049 0.00089
 14950. -15000.    0.00002 0.00020 0.00063 0.00013
 15000. -15050.    0.00075 0.00077 0.00049 0.00108
 15050. -15100.    0.00100 0.00131 0.00114 0.00090
 15100. -15150.    0.00167 0.00106 0.00139 0.00185
 15150. -15200.    0.00049 0.00010 0.00007 0.00038
 15200. -15250.    0.00030 0.00091 0.00082 0.00012
 15250. -15300.    0.00076 0.00074 0.00059 0.00018
 15300. -15350.    0.00024 0.00071 0.00043 0.00044
 15350. -15400.    0.00203 0.00151 0.00190 0.00144
 15400. -15450.    0.00133 0.00105 0.00083 0.00108
 15450. -15500.    0.00032 0.00002 0.00001 0.00041
 15500. -15550.    0.00008 0.00078 0.00070 0.00131
 15550. -15600.    0.00152 0.00190 0.00182 0.00143
 15600. -15650.    0.00152 0.00150 0.00101 0.00065
 15650. -15700.    0.00042 0.00035 0.00021 0.00030
 15700. -15750.    0.00160 0.00075 0.00080 0.00008
 15750. -15800.    0.00108 0.00064 0.00122 0.00185
 15800. -15850.    0.00089 0.00119 0.00053 0.00003
 15850. -15900.    0.00041 0.00043 0.00101 0.00121
 15900. -15950.    0.00005 0.00005 0.00004 0.00003
 15950. -16000.    0.00142 0.00132 0.00109 0.00100
 16000. -16050.    0.00043 0.00048 0.00057 0.00095
 16050. -16100.    0.00017 0.00018 0.00092 0.00121
 16100. -16150.    0.00028 0.00052 0.00015 0.00029
 16150. -16200.    0.00040 0.00074 0.00051 0.00054
 16200. -16250.    0.00021 0.00003 0.00005 0.00035
 16250. -16300.    0.00035 0.00056 0.00009 0.00037
 16300. -16350.    0.00089 0.00112 0.00181 0.00134
 16350. -16400.    0.00140 0.00176 0.00137 0.00140
 16400. -16450.    0.00066 0.00048 0.00008 0.00030
 16450. -16500.    0.00011 0.00078 0.00109 0.00177
 16500. -16550.    0.00007 0.00031 0.00088 0.00082
 16550. -16600.    0.00020 0.00079 0.00100 0.00009
 16600. -16650.    0.00001 0.00007 0.00010 0.00029
 16650. -16700.    0.00141 0.00162 0.00147 0.00167
 16700. -16750.    0.00111 0.00145 0.00120 0.00092
 16750. -16800.    0.00120 0.00142 0.00091 0.00107
 16800. -16850.    0.00070 0.00096 0.00065 0.00157
 16850. -16900.    0.00103 0.00047 0.00081 0.00023
 16900. -16950.    0.00117 0.00156 0.00230 0.00202
 16950. -17000.    0.00038 0.00042 0.00026 0.00041
 17000. -17050.    0.00032 0.00026 0.00044 0.00062
 17050. -17100.    0.00094 0.00097 0.00078 0.00046
 17100. -17150.    0.00018 0.00081 0.00112 0.00164
 17150. -17200.    0.00112 0.00124 0.00113 0.00067
 17200. -17250.    0.00039 0.00126 0.00130 0.00159
 17250. -17300.    0.00087 0.00134 0.00056 0.00046
 17300. -17350.    0.00115 0.00118 0.00129 0.00132
 17350. -17400.    0.00103 0.00110 0.00119 0.00086
 17400. -17450.    0.00016 0.00034 0.00039 0.00054
 17450. -17500.    0.00037 0.00022 0.00028 0.00009
 17500. -17550.    0.00025 0.00051 0.00086 0.00047
 17550. -17600.    0.00168 0.00162 0.00127 0.00075
 17600. -17650.    0.00036 0.00095 0.00017 0.00019
 17650. -17700.    0.00018 0.00096 0.00123 0.00092
 17700. -17750.    0.00017 0.00049 0.00016 0.00052
 17750. -17800.    0.00012 0.00032 0.00088 0.00019
 17800. -17850.    0.00024 0.00079 0.00060 0.00014
 17850. -17900.    0.00031 0.00009 0.00011 0.00009
 17900. -17950.    0.00193 0.00115 0.00075 0.00035
 17950. -18000.    0.00116 0.00052 0.00084 0.00070
 18000. -18050.    0.00110 0.00086 0.00037 0.00055
 18050. -18100.    0.00018 0.00057 0.00113 0.00155
 18100. -18150.    0.00056 0.00037 0.00043 0.00032
 18150. -18200.    0.00141 0.00159 0.00199 0.00188
 18200. -18250.    0.00042 0.00000 0.00052 0.00086
 18250. -18300.    0.00023 0.00000 0.00131 0.00177
 18300. -18350.    0.00089 0.00078 0.00078 0.00028
 18350. -18400.    0.00122 0.00164 0.00091 0.00079
 18400. -18450.    0.00045 0.00050 0.00056 0.00053
 18450. -18500.    0.00032 0.00073 0.00069 0.00140
 18500. -18550.    0.00076 0.00023 0.00025 0.00076
 18550. -18600.    0.00023 0.00053 0.00081 0.00004
 18600. -18650.    0.00054 0.00054 0.00071 0.00106
 18650. -18700.    0.00065 0.00041 0.00004 0.00092
 18700. -18750.    0.00098 0.00138 0.00154 0.00090
 18750. -18800.    0.00002 0.00022 0.00030 0.00023
 18800. -18850.    0.00147 0.00099 0.00031 0.00019
 18850. -18900.    0.00071 0.00157 0.00057 0.00006
 18900. -18950.    0.00132 0.00123 0.00079 0.00067
 18950. -19000.    0.00103 0.00036 0.00073 0.00083
 19000. -19050.    0.00015 0.00056 0.00076 0.00066
 19050. -19100.    0.00092 0.00072 0.00114 0.00054
 19100. -19150.    0.00000 0.00022 0.00063 0.00025
 19150. -19200.    0.00043 0.00051 0.00036 0.00021
 19200. -19250.    0.00029 0.00073 0.00083 0.00052
 19250. -19300.    0.00006 0.00002 0.00055 0.00058
 19300. -19350.    0.00127 0.00068 0.00022 0.00064
 19350. -19400.    0.00056 0.00072 0.00031 0.00011
 19400. -19450.    0.00133 0.00005 0.00046 0.00046
 19450. -19500.    0.00093 0.00066 0.00017 0.00050
 19500. -19550.    0.00111 0.00148 0.00105 0.00039
 19550. -19600.    0.00227 0.00278 0.00241 0.00233
 19600. -19650.    0.00136 0.00094 0.00035 0.00015
 19650. -19700.    0.00271 0.00239 0.00275 0.00262
 19700. -19750.    0.00084 0.00088 0.00051 0.00070
 19750. -19800.    0.00116 0.00046 0.00012 0.00065
 19800. -19850.    0.00055 0.00090 0.00087 0.00041
 19850. -19900.    0.00022 0.00042 0.00006 0.00034
 19900. -19950.    0.00024 0.00035 0.00053 0.00163
 19950. -20000.    0.00047 0.00053 0.00033 0.00042


 REACTION RATES (1.REACTION):

  H(N,N)  C(N,N)  (N,N')   (N,A) (N,N'A) (N,N'3A)  (N,P)   (N,D)
 3867170 2859509  510124  179946  104142  361885   11897   32807
 LIGHT PIPE  AL(N,N)
    1262 1072520


 MULTIPLE SCATTERING:

     58426041648158 640121 336497 207367 133909  83739  50201  28419  28985
 L=0  825502  39004   2162    129     10      0      0      0      0      0

